time (seconds),accelerometer X (m/sec^2 highlighted),accelerometer Y (m/sec^2 highlighted),accelerometer Z (m/sec^2 highlighted)
0.0,-1.0,-9.84,0.1
0.016,-1.17,-9.9,0.06
0.032,-1.05,-9.81,0.04
0.048,-1.06,-9.78,0.07
0.064,-1.09,-9.82,0.05
0.08,-1.15,-9.75,0.04
0.096,-0.98,-9.86,0.09
0.112,-1.06,-9.82,0.09
0.128,-1.0,-9.76,0.08
0.144,-0.98,-9.82,0.17
0.16,-1.0,-9.86,-0.13
0.176,-1.03,-9.75,-0.02
0.192,-0.98,-9.81,0.06
0.208,-0.99,-9.77,0.01
0.224,-0.98,-9.75,0.07
0.24,-1.09,-9.85,0.07
0.256,-1.02,-9.84,0.19
0.272,-1.03,-9.8,-0.04
0.288,-0.84,-9.87,0.03
0.304,-1.01,-9.8,0.04
0.32,-0.91,-9.83,0.02
0.336,-1.05,-9.85,0.11
0.352,-0.98,-9.88,0.12
0.368,-1.03,-9.8,0.15
0.384,-0.95,-9.85,0.07
0.4,-0.87,-9.79,0.06
0.416,-1.01,-9.79,0.09
0.432,-0.93,-9.88,0.08
0.448,-0.94,-9.82,0.06
0.464,-0.96,-9.88,0.1
0.48,-1.01,-9.77,0.03
0.496,-1.01,-9.83,-0.01
0.512,-1.0,-9.85,-0.0
0.528,-1.0,-9.77,-0.17
0.544,-1.0,-9.82,-0.02
0.56,-0.97,-9.73,0.08
0.576,-1.01,-9.8,0.12
0.592,-0.97,-9.75,0.04
0.608,-0.98,-9.83,-0.03
0.624,-1.04,-9.81,0.06
0.64,-1.02,-9.74,-0.03
0.656,-0.93,-9.82,-0.03
0.672,-0.93,-9.71,0.03
0.688,-0.89,-9.84,0.08
0.704,-1.05,-9.75,0.11
0.72,-0.9,-9.8,0.17
0.736,-1.05,-9.76,0.07
0.752,-0.92,-9.86,0.08
0.768,-1.04,-9.8,-0.04
0.784,-0.85,-9.8,0.07
0.8,-0.96,-9.87,-0.01
0.816,-0.8,-9.85,-0.06
0.832,-0.9,-9.77,-0.05
0.848,-0.86,-9.79,0.08
0.864,-0.87,-9.73,0.22
0.88,-0.8,-9.78,0.03
0.896,-0.89,-9.83,0.03
0.912,-0.93,-9.9,-0.02
0.928,-0.92,-9.84,-0.11
0.944,-0.9,-9.83,0.11
0.96,-0.84,-9.75,-0.1
0.976,-0.81,-9.73,0.02
0.992,-0.83,-9.78,0.09
1.008,-0.8,-9.75,0.06
1.024,-0.72,-9.77,0.12
1.04,-0.89,-9.87,0.01
1.056,-0.82,-9.79,0.07
1.072,-0.74,-9.9,-0.06
1.088,-0.85,-9.75,0.04
1.104,-0.75,-9.85,-0.06
1.12,-0.83,-9.88,-0.02
1.136,-0.84,-9.9,0.13
1.152,-0.83,-9.83,-0.04
1.168,-0.82,-9.79,0.11
1.184,-0.85,-9.76,0.03
1.2,-0.76,-9.87,0.04
1.216,-0.85,-9.81,-0.01
1.232,-0.78,-9.78,0.01
1.248,-0.78,-9.78,0.01
1.264,-0.84,-9.8,0.08
1.28,-0.76,-9.81,-0.02
1.296,-0.73,-9.82,-0.05
1.312,-0.79,-9.87,-0.02
1.328,-0.77,-9.81,-0.03
1.344,-0.9,-9.79,-0.04
1.36,-0.78,-9.88,0.18
1.376,-0.76,-9.74,0.08
1.392,-0.72,-9.81,0.08
1.408,-0.84,-9.77,0.08
1.424,-0.81,-9.82,-0.0
1.44,-0.76,-9.76,0.05
1.456,-0.86,-9.86,0.16
1.472,-0.8,-9.8,0.05
1.488,-0.98,-9.96,-0.01
1.504,-0.8,-9.75,0.04
1.52,-0.91,-9.77,0.15
1.536,-0.91,-9.77,0.15
1.552,-0.84,-9.85,0.13
1.568,-0.84,-9.8,0.1
1.584,-0.81,-9.81,0.06
1.6,-0.92,-9.82,0.08
1.616,-0.84,-9.89,0.09
1.632,-0.68,-9.76,0.05
1.648,-0.76,-9.89,0.12
1.664,-0.8,-9.97,0.1
1.68,-0.7,-9.84,0.09
1.696,-0.74,-9.79,0.03
1.712,-0.68,-9.84,0.07
1.728,-0.73,-9.73,-0.08
1.744,-0.61,-9.77,0.01
1.76,-0.7,-9.81,0.07
1.776,-0.69,-9.72,-0.07
1.792,-0.8,-9.8,-0.03
1.808,-0.76,-9.8,-0.05
1.824,-0.66,-9.84,0.02
1.84,-0.75,-9.88,-0.01
1.856,-0.66,-9.75,0.12
1.872,-0.79,-9.89,0.07
1.888,-0.71,-9.79,0.04
1.904,-0.66,-9.89,0.13
1.92,-0.69,-9.78,0.11
1.936,-0.71,-9.84,0.07
1.952,-0.64,-9.86,0.08
1.968,-0.59,-9.83,-0.04
1.984,-0.65,-9.81,0.0
2.0,-0.59,-9.81,-0.03
2.016,-0.62,-9.78,-0.01
2.032,-0.7,-9.81,-0.18
2.048,-0.66,-9.75,0.08
2.064,-0.6,-9.79,-0.0
2.08,-0.74,-9.81,0.04
2.096,-0.75,-9.82,0.01
2.112,-0.73,-9.89,-0.06
2.128,-0.82,-9.72,0.08
2.144,-0.72,-9.75,-0.06
2.16,-0.68,-9.87,0.13
2.176,-0.72,-9.71,-0.05
2.192,-0.81,-9.84,-0.06
2.208,-0.85,-9.86,0.04
2.224,-0.72,-9.75,0.01
2.24,-0.69,-9.77,0.13
2.256,-0.66,-9.84,0.03
2.272,-0.73,-9.78,0.09
2.288,-0.8,-9.76,0.02
2.304,-0.69,-9.86,0.02
2.32,-0.74,-9.89,0.07
2.336,-0.78,-9.82,0.09
2.352,-0.62,-9.79,0.11
2.368,-0.77,-9.83,0.1
2.384,-0.63,-9.75,-0.03
2.4,-0.73,-9.84,0.1
2.416,-0.65,-9.77,0.09
2.432,-0.64,-9.82,0.0
2.448,-0.64,-9.86,0.08
2.464,-0.7,-9.76,0.08
2.48,-0.63,-9.75,0.13
2.496,-0.76,-9.82,0.06
2.512,-0.77,-9.86,-0.05
2.528,-0.71,-9.7,-0.06
2.544,-0.62,-9.82,0.02
2.56,-0.62,-9.8,0.0
2.576,-0.62,-9.79,0.06
2.592,-0.6,-9.67,0.05
2.608,-0.66,-9.85,0.05
2.624,-0.57,-9.84,0.14
2.64,-0.64,-9.8,0.11
2.656,-0.65,-9.87,-0.02
2.672,-0.56,-9.89,0.19
2.688,-0.61,-9.83,0.19
2.704,-0.64,-9.88,-0.03
2.72,-0.57,-9.91,0.11
2.736,-0.54,-9.78,0.14
2.752,-0.59,-9.76,0.15
2.768,-0.62,-9.85,-0.05
2.784,-0.58,-9.83,0.06
2.8,-0.52,-9.89,0.05
2.816,-0.64,-9.81,0.06
2.832,-0.58,-9.89,0.0
2.848,-0.64,-9.84,-0.09
2.864,-0.62,-9.83,0.01
2.88,-0.58,-9.89,-0.04
2.896,-0.63,-9.83,0.04
2.912,-0.59,-9.75,0.04
2.928,-0.61,-9.82,0.02
2.944,-0.6,-9.89,-0.01
2.96,-0.57,-9.72,0.07
2.976,-0.52,-9.81,0.03
2.992,-0.66,-9.94,-0.04
3.008,-0.64,-9.91,0.1
3.024,-0.58,-9.77,0.03
3.04,-0.44,-9.78,0.11
3.056,-0.57,-9.82,-0.01
3.072,-0.52,-9.77,0.15
3.088,-0.68,-9.89,-0.01
3.104,-0.63,-9.82,-0.03
3.12,-0.53,-9.84,0.07
3.136,-0.55,-9.8,-0.05
3.152,-0.63,-9.87,0.02
3.168,-0.62,-9.77,0.1
3.184,-0.62,-9.86,-0.07
3.2,-0.58,-9.91,0.19
3.216,-0.59,-9.8,0.06
3.232,-0.6,-9.73,-0.04
3.248,-0.55,-9.87,-0.09
3.264,-0.43,-9.88,0.0
3.28,-0.63,-9.83,-0.03
3.296,-0.6,-9.87,0.03
3.312,-0.59,-9.83,0.0
3.328,-0.55,-9.79,0.09
3.344,-0.57,-9.91,0.1
3.36,-0.65,-9.85,-0.05
3.376,-0.5,-9.89,0.02
3.392,-0.56,-9.8,-0.03
3.408,-0.61,-9.8,0.06
3.424,-0.59,-9.74,0.02
3.44,-0.58,-9.85,-0.01
3.456,-0.59,-9.79,-0.03
3.472,-0.55,-9.85,0.02
3.488,-0.47,-9.89,-0.05
3.504,-0.51,-9.84,0.05
3.52,-0.55,-9.81,0.03
3.536,-0.45,-9.75,-0.11
3.552,-0.55,-9.83,-0.0
3.568,-0.54,-9.88,0.11
3.584,-0.55,-9.79,-0.03
3.6,-0.51,-9.87,0.1
3.616,-0.47,-9.95,-0.02
3.632,-0.57,-9.82,0.07
3.648,-0.52,-9.77,0.0
3.664,-0.38,-9.79,0.06
3.68,-0.54,-9.82,0.03
3.696,-0.47,-9.88,-0.01
3.712,-0.5,-9.79,0.03
3.728,-0.5,-9.79,0.02
3.744,-0.52,-9.9,0.08
3.76,-0.55,-9.78,-0.1
3.776,-0.52,-9.84,-0.05
3.792,-0.53,-9.88,0.01
3.808,-0.5,-9.79,0.05
3.824,-0.43,-9.82,0.08
3.84,-0.57,-9.81,0.13
3.856,-0.48,-9.73,-0.06
3.872,-0.48,-9.88,0.15
3.888,-0.55,-9.8,-0.04
3.904,-0.62,-9.83,0.03
3.92,-0.55,-9.81,0.09
3.936,-0.62,-9.87,0.2
3.952,-0.55,-9.92,0.03
3.968,-0.58,-9.94,0.03
3.984,-0.49,-9.85,0.07
4.0,-0.52,-9.9,0.09
4.016,-0.62,-9.95,-0.0
4.032,-0.5,-9.85,0.12
4.048,-0.47,-9.87,-0.07
4.064,-0.62,-9.84,0.07
4.08,-0.48,-9.87,0.05
4.096,-0.63,-9.86,0.04
4.112,-0.55,-9.86,0.14
4.128,-0.53,-9.85,0.05
4.144,-0.51,-9.92,0.02
4.16,-0.52,-9.84,0.1
4.176,-0.45,-9.88,0.12
4.192,-0.47,-9.9,0.03
4.208,-0.49,-9.87,0.02
4.224,-0.46,-9.79,-0.05
4.24,-0.54,-9.84,0.02
4.256,-0.47,-9.82,0.06
4.272,-0.48,-9.81,0.01
4.288,-0.38,-9.77,-0.1
4.304,-0.45,-9.81,-0.06
4.32,-0.4,-9.74,-0.09
4.336,-0.44,-9.83,0.04
4.352,-0.49,-9.71,0.02
4.368,-0.39,-9.8,-0.1
4.384,-0.39,-9.79,0.08
4.4,-0.44,-9.78,0.01
4.416,-0.56,-9.82,-0.02
4.432,-0.48,-9.79,-0.11
4.448,-0.38,-9.79,-0.02
4.464,-0.41,-9.82,0.05
4.48,-0.42,-9.77,0.02
4.496,-0.43,-9.82,-0.2
4.512,-0.46,-9.84,-0.05
4.528,-0.45,-9.86,-0.01
4.544,-0.4,-9.79,-0.09
4.56,-0.51,-9.8,-0.06
4.576,-0.4,-9.88,0.01
4.592,-0.43,-9.87,0.07
4.608,-0.51,-9.87,0.03
4.624,-0.45,-9.77,0.08
4.64,-0.43,-9.76,-0.03
4.656,-0.46,-9.82,-0.01
4.672,-0.49,-9.86,-0.14
4.688,-0.53,-9.81,0.0
4.704,-0.52,-9.75,0.01
4.72,-0.49,-9.83,0.0
4.736,-0.52,-9.8,-0.03
4.752,-0.43,-9.87,-0.05
4.768,-0.48,-9.89,-0.01
4.784,-0.58,-9.82,0.07
4.8,-0.48,-9.82,-0.11
4.816,-0.49,-9.81,-0.01
4.832,-0.5,-9.95,0.07
4.848,-0.48,-9.78,-0.05
4.864,-0.46,-9.78,0.01
4.88,-0.46,-9.75,0.02
4.896,-0.44,-9.82,-0.11
4.912,-0.44,-9.78,0.08
4.928,-0.43,-9.97,0.13
4.944,-0.43,-9.84,0.17
4.96,-0.46,-9.83,-0.07
4.976,-0.42,-9.91,0.01
4.992,-0.41,-9.83,0.03
5.008,-0.5,-9.82,0.03
5.024,-0.47,-9.82,-0.06
5.04,-0.49,-9.76,-0.09
5.056,-0.45,-9.86,0.0
5.072,-0.37,-9.88,-0.04
5.088,-0.4,-9.86,0.04
5.104,-0.45,-9.85,-0.0
5.12,-0.41,-9.83,0.03
5.136,-0.41,-9.81,0.12
5.152,-0.43,-9.86,-0.0
5.168,-0.45,-9.76,0.03
5.184,-0.42,-9.8,0.01
5.2,-0.38,-9.77,-0.03
5.216,-0.4,-9.74,0.12
5.232,-0.36,-9.83,-0.01
5.248,-0.31,-9.81,-0.12
5.264,-0.34,-9.82,-0.03
5.28,-0.33,-9.88,-0.03
5.296,-0.4,-9.84,-0.12
5.312,-0.29,-9.81,-0.1
5.328,-0.37,-9.78,-0.02
5.344,-0.35,-9.86,0.17
5.36,-0.49,-9.79,0.08
5.376,-0.41,-9.83,-0.01
5.392,-0.38,-9.81,-0.05
5.408,-0.44,-9.85,-0.1
5.424,-0.43,-9.8,0.07
5.44,-0.44,-9.8,-0.02
5.456,-0.35,-9.75,-0.07
5.472,-0.46,-9.73,-0.01
5.488,-0.49,-9.87,-0.01
5.504,-0.43,-9.86,0.09
5.52,-0.49,-9.93,-0.07
5.536,-0.4,-9.78,-0.14
5.552,-0.5,-9.8,0.01
5.568,-0.43,-9.76,-0.09
5.584,-0.48,-9.94,-0.06
5.6,-0.43,-9.82,0.04
5.616,-0.39,-9.84,-0.01
5.632,-0.45,-9.79,-0.1
5.648,-0.35,-9.81,-0.03
5.664,-0.34,-9.77,-0.12
5.68,-0.42,-9.89,-0.05
5.696,-0.4,-9.83,-0.1
5.712,-0.46,-9.83,-0.09
5.728,-0.33,-9.78,-0.12
5.744,-0.33,-9.83,-0.15
5.76,-0.39,-9.76,-0.07
5.776,-0.35,-9.82,-0.03
5.792,-0.41,-9.81,-0.0
5.808,-0.44,-9.78,0.14
5.824,-0.37,-9.84,-0.15
5.84,-0.51,-9.8,-0.15
5.856,-0.44,-9.84,-0.11
5.872,-0.41,-9.83,-0.08
5.888,-0.49,-9.91,-0.12
5.904,-0.35,-9.82,-0.1
5.92,-0.33,-9.84,-0.02
5.936,-0.37,-9.78,0.01
5.952,-0.36,-9.74,-0.02
5.968,-0.38,-9.81,-0.01
5.984,-0.33,-9.8,-0.02
6.0,-0.35,-9.84,-0.08
6.016,-0.29,-9.84,-0.01
6.032,-0.34,-9.84,-0.11
6.048,-0.28,-9.83,-0.08
6.064,-0.46,-9.79,-0.04
6.08,-0.4,-9.74,0.03
6.096,-0.35,-9.77,-0.06
6.112,-0.2,-9.82,-0.12
6.128,-0.42,-9.81,0.11
6.144,-0.25,-9.93,0.02
6.16,-0.34,-9.74,0.02
6.176,-0.3,-9.72,-0.05
6.192,-0.39,-9.81,0.08
6.208,-0.34,-9.82,0.07
6.224,-0.36,-9.92,0.01
6.24,-0.39,-9.84,0.01
6.256,-0.38,-9.87,0.06
6.272,-0.36,-9.87,0.06
6.288,-0.33,-9.85,0.01
6.304,-0.34,-9.83,-0.05
6.32,-0.41,-9.77,-0.07
6.336,-0.34,-9.78,0.11
6.352,-0.37,-9.83,0.03
6.368,-0.46,-9.84,0.02
6.384,-0.31,-9.84,-0.06
6.4,-0.37,-9.79,0.1
6.416,-0.38,-9.83,0.06
6.432,-0.37,-9.91,-0.0
6.448,-0.42,-9.94,-0.19
6.464,-0.46,-9.8,0.07
6.48,-0.41,-9.8,-0.1
6.496,-0.44,-9.86,-0.03
6.512,-0.38,-9.79,-0.11
6.528,-0.45,-9.8,-0.07
6.544,-0.36,-9.8,-0.1
6.56,-0.48,-9.81,-0.05
6.576,-0.36,-9.78,-0.08
6.592,-0.38,-9.85,0.07
6.608,-0.33,-9.74,0.11
6.624,-0.32,-9.82,-0.11
6.64,-0.36,-9.74,-0.01
6.656,-0.31,-9.79,0.07
6.672,-0.33,-9.82,-0.05
6.688,-0.24,-9.72,0.03
6.704,-0.36,-9.85,-0.13
6.72,-0.34,-9.89,-0.08
6.736,-0.3,-9.8,-0.09
6.752,-0.29,-9.84,-0.05
6.768,-0.39,-9.84,-0.01
6.784,-0.41,-9.85,-0.11
6.8,-0.28,-9.78,-0.06
6.816,-0.36,-9.8,-0.15
6.832,-0.36,-9.82,-0.19
6.848,-0.34,-9.92,-0.07
6.864,-0.36,-9.77,-0.18
6.88,-0.37,-9.81,-0.11
6.896,-0.28,-9.9,-0.08
6.912,-0.33,-9.86,-0.05
6.928,-0.3,-9.87,-0.16
6.944,-0.36,-9.8,-0.06
6.96,-0.31,-9.88,-0.03
6.976,-0.26,-9.81,-0.1
6.992,-0.35,-9.82,0.01
7.008,-0.3,-9.91,-0.23
7.024,-0.31,-9.88,-0.15
7.04,-0.27,-9.79,-0.09
7.056,-0.31,-9.8,-0.11
7.072,-0.36,-9.79,-0.13
7.088,-0.28,-9.84,-0.01
7.104,-0.37,-9.78,-0.02
7.12,-0.43,-9.88,0.0
7.136,-0.36,-9.86,-0.14
7.152,-0.38,-9.75,-0.03
7.168,-0.34,-9.83,-0.16
7.184,-0.38,-9.86,-0.09
7.2,-0.35,-9.89,-0.07
7.216,-0.45,-9.82,-0.05
7.232,-0.38,-9.77,-0.07
7.248,-0.35,-9.92,-0.0
7.264,-0.39,-9.81,0.0
7.28,-0.31,-9.8,-0.06
7.296,-0.43,-9.78,-0.13
7.312,-0.34,-9.82,-0.12
7.328,-0.37,-9.8,-0.08
7.344,-0.37,-9.8,0.01
7.36,-0.33,-9.76,-0.05
7.376,-0.36,-9.78,-0.11
7.392,-0.37,-9.83,0.06
7.408,-0.29,-9.87,-0.04
7.424,-0.28,-9.92,-0.12
7.44,-0.4,-9.79,0.08
7.456,-0.37,-9.92,-0.07
7.472,-0.41,-9.84,0.08
7.488,-0.41,-9.79,0.01
7.504,-0.32,-9.84,0.09
7.52,-0.34,-9.86,0.06
7.536,-0.3,-9.83,0.05
7.552,-0.37,-9.81,-0.09
7.568,-0.27,-9.83,-0.09
7.584,-0.3,-9.85,0.11
7.6,-0.34,-9.73,-0.05
7.616,-0.31,-9.79,0.01
7.632,-0.18,-9.9,-0.05
7.648,-0.24,-9.85,0.1
7.664,-0.21,-9.92,0.04
7.68,-0.27,-9.8,-0.13
7.696,-0.33,-9.86,0.02
7.712,-0.2,-9.85,-0.01
7.728,-0.24,-9.84,-0.01
7.744,-0.25,-9.83,-0.11
7.76,-0.27,-9.75,0.02
7.776,-0.27,-9.77,0.02
7.792,-0.26,-9.85,0.02
7.808,-0.38,-9.92,-0.11
7.824,-0.21,-9.73,-0.24
7.84,-0.25,-9.83,0.04
7.856,-0.33,-9.8,0.01
7.872,-0.29,-9.83,0.1
7.888,-0.37,-9.81,-0.11
7.904,-0.29,-9.74,0.03
7.92,-0.27,-9.76,-0.06
7.936,-0.23,-9.86,0.04
7.952,-0.29,-9.79,-0.02
7.968,-0.3,-9.81,0.0
7.984,-0.31,-9.79,-0.16
8.0,-0.3,-9.87,-0.18
8.016,-0.32,-9.92,-0.11
8.032,-0.28,-9.79,-0.13
8.048,-0.3,-9.85,-0.01
8.064,-0.32,-9.85,-0.17
8.08,-0.33,-9.81,0.1
8.096,-0.25,-9.87,-0.01
8.112,-0.41,-9.89,-0.09
8.128,-0.31,-9.82,-0.14
8.144,-0.42,-9.82,0.0
8.16,-0.2,-9.8,-0.02
8.176,-0.38,-9.85,-0.07
8.192,-0.35,-9.82,-0.14
8.208,-0.33,-9.86,-0.06
8.224,-0.31,-9.8,-0.23
8.24,-0.38,-9.8,-0.09
8.256,-0.24,-9.77,-0.11
8.272,-0.32,-9.81,-0.15
8.288,-0.28,-9.83,-0.11
8.304,-0.2,-9.77,-0.1
8.32,-0.33,-9.85,-0.14
8.336,-0.22,-9.83,0.05
8.352,-0.2,-9.86,-0.12
8.368,-0.25,-9.82,-0.14
8.384,-0.31,-9.9,-0.02
8.4,-0.17,-9.87,-0.12
8.416,-0.22,-9.85,-0.13
8.432,-0.31,-9.79,0.01
8.448,-0.28,-9.8,-0.02
8.464,-0.24,-9.86,-0.14
8.48,-0.25,-9.84,0.03
8.496,-0.31,-9.84,-0.05
8.512,-0.28,-9.8,-0.1
8.528,-0.2,-9.83,-0.12
8.544,-0.22,-9.86,0.05
8.56,-0.36,-9.84,-0.03
8.576,-0.11,-9.64,0.04
8.592,-0.22,-9.86,-0.01
8.608,-0.24,-9.8,-0.04
8.624,-0.23,-9.85,-0.07
8.64,-0.19,-9.78,-0.03
8.656,-0.27,-9.81,-0.0
8.672,-0.23,-9.84,-0.05
8.688,-0.19,-9.77,-0.03
8.704,-0.2,-9.86,-0.1
8.72,-0.29,-9.84,-0.07
8.736,-0.25,-9.73,0.04
8.752,-0.23,-9.87,-0.05
8.768,-0.29,-9.79,0.03
8.784,-0.19,-9.88,-0.04
8.8,-0.24,-9.79,-0.01
8.816,-0.34,-9.81,-0.04
8.832,-0.32,-9.85,-0.07
8.848,-0.35,-9.85,-0.01
8.864,-0.3,-9.89,-0.02
8.88,-0.29,-9.86,0.1
8.896,-0.3,-9.78,-0.06
8.912,-0.3,-9.85,-0.23
8.928,-0.28,-9.81,0.04
8.944,-0.35,-9.86,0.01
8.96,-0.19,-9.87,0.11
8.976,-0.32,-9.87,0.03
8.992,-0.28,-9.78,-0.04
9.008,-0.36,-9.78,-0.17
9.024,-0.26,-9.88,-0.06
9.04,-0.32,-9.82,0.03
9.056,-0.3,-9.91,-0.1
9.072,-0.27,-9.77,0.03
9.088,-0.32,-9.78,0.07
9.104,-0.26,-9.85,-0.0
9.12,-0.27,-9.73,-0.07
9.136,-0.27,-9.89,-0.08
9.152,-0.28,-9.86,-0.01
9.168,-0.23,-9.8,0.05
9.184,-0.31,-9.95,0.06
9.2,-0.24,-9.84,-0.04
9.216,-0.35,-9.88,0.05
9.232,-0.19,-9.8,-0.07
9.248,-0.2,-9.85,-0.09
9.264,-0.29,-9.85,-0.08
9.28,-0.22,-9.88,-0.12
9.296,-0.19,-9.94,-0.1
9.312,-0.2,-9.8,-0.11
9.328,-0.23,-9.73,-0.09
9.344,-0.22,-9.96,-0.11
9.36,-0.18,-9.82,-0.01
9.376,-0.23,-9.8,-0.03
9.392,-0.22,-9.84,-0.09
9.408,-0.2,-9.81,-0.01
9.424,-0.27,-9.84,-0.08
9.44,-0.26,-9.81,-0.2
9.456,-0.35,-9.84,-0.0
9.472,-0.29,-9.78,-0.13
9.488,-0.35,-9.83,-0.01
9.504,-0.23,-9.75,-0.11
9.52,-0.18,-9.8,-0.06
9.536,-0.28,-9.9,-0.04
9.552,-0.27,-9.83,-0.04
9.568,-0.35,-9.85,-0.02
9.584,-0.22,-9.87,-0.05
9.6,-0.27,-9.93,-0.07
9.616,-0.27,-9.81,0.02
9.632,-0.24,-9.84,0.04
9.648,-0.27,-9.78,-0.08
9.664,-0.23,-9.85,-0.1
9.68,-0.25,-9.93,-0.13
9.696,-0.27,-9.92,0.05
9.712,-0.23,-9.82,-0.0
9.728,-0.29,-9.86,-0.05
9.744,-0.36,-9.91,-0.06
9.76,-0.24,-9.81,-0.02
9.776,-0.27,-9.9,-0.07
9.792,-0.3,-9.85,0.14
9.808,-0.36,-9.78,-0.03
9.824,-0.35,-9.82,0.0
9.84,-0.31,-9.79,-0.02
9.856,-0.28,-9.8,-0.06
9.872,-0.37,-9.79,-0.1
9.888,-0.18,-9.79,-0.06
9.904,-0.32,-9.84,-0.06
9.92,-0.25,-9.87,0.03
9.936,-0.26,-9.8,-0.05
9.952,-0.18,-9.81,-0.01
9.968,-0.29,-9.83,0.02
9.984,-0.3,-9.77,-0.03
10.0,-0.28,-9.71,0.0
10.016,-0.32,-9.87,-0.06
10.032,-0.17,-9.88,0.12
10.048,-0.2,-9.71,-0.08
10.064,-0.25,-9.9,-0.11
10.08,-0.28,-9.85,0.01
10.096,-0.18,-9.78,-0.01
10.112,-0.19,-9.93,-0.07
10.128,-0.29,-9.82,0.15
10.144,-0.21,-9.84,-0.01
10.16,-0.23,-9.74,-0.05
10.176,-0.28,-9.82,-0.14
10.192,-0.22,-9.98,0.01
10.208,-0.21,-9.86,0.08
10.224,-0.16,-9.86,0.03
10.24,-0.18,-9.81,-0.04
10.256,-0.26,-9.91,0.01
10.272,-0.22,-9.8,-0.19
10.288,-0.18,-9.82,-0.0
10.304,-0.25,-9.8,-0.03
10.32,-0.14,-9.81,0.01
10.336,-0.23,-9.81,0.04
10.352,-0.24,-9.78,0.09
10.368,-0.23,-9.84,0.1
10.384,-0.27,-9.81,-0.11
10.4,-0.27,-9.91,-0.02
10.416,-0.14,-9.83,0.03
10.432,-0.23,-9.77,-0.17
10.448,-0.22,-9.77,-0.0
10.464,-0.29,-9.84,0.01
10.48,-0.3,-9.77,-0.11
10.496,-0.33,-9.81,-0.04
10.512,-0.29,-9.97,-0.02
10.528,-0.23,-9.82,-0.1
10.544,-0.2,-9.92,0.01
10.56,-0.34,-9.81,-0.01
10.576,-0.37,-9.85,-0.02
10.592,-0.21,-9.9,-0.07
10.608,-0.29,-9.73,-0.04
10.624,-0.24,-9.82,-0.14
10.64,-0.22,-9.86,-0.16
10.656,-0.2,-9.9,-0.07
10.672,-0.27,-9.79,0.06
10.688,-0.26,-9.78,-0.03
10.704,-0.32,-9.87,-0.08
10.72,-0.32,-9.83,-0.14
10.736,-0.29,-9.86,-0.1
10.752,-0.36,-9.77,-0.02
10.768,-0.38,-9.81,0.1
10.784,-0.3,-9.82,-0.12
10.8,-0.23,-9.77,0.09
10.816,-0.25,-9.74,0.11
10.832,-0.19,-9.78,0.09
10.848,-0.28,-9.76,0.1
10.864,-0.24,-9.85,0.02
10.88,-0.19,-9.8,-0.03
10.896,-0.17,-9.84,0.09
10.912,-0.25,-9.74,-0.02
10.928,-0.2,-9.91,-0.11
10.944,-0.19,-9.84,-0.02
10.96,-0.23,-9.84,0.03
10.976,-0.2,-9.73,0.13
10.992,-0.21,-9.83,-0.04
11.008,-0.23,-9.79,0.14
11.024,-0.19,-9.83,-0.12
11.04,-0.21,-9.81,0.08
11.056,-0.15,-9.89,-0.19
11.072,-0.18,-9.79,0.04
11.088,-0.19,-9.78,0.03
11.104,-0.2,-9.83,-0.07
11.12,-0.24,-9.87,0.03
11.136,-0.18,-9.79,0.02
11.152,-0.1,-9.84,-0.07
11.168,-0.26,-9.82,-0.02
11.184,-0.2,-9.77,0.09
11.2,-0.13,-9.81,0.13
11.216,-0.12,-9.87,0.06
11.232,-0.16,-9.72,-0.01
11.248,-0.09,-9.92,0.08
11.264,-0.21,-9.82,0.04
11.28,-0.23,-9.77,-0.03
11.296,-0.15,-9.93,0.07
11.312,-0.18,-9.78,0.09
11.328,-0.21,-9.79,0.09
11.344,-0.29,-9.92,-0.05
11.36,-0.21,-9.84,0.06
11.376,-0.19,-9.86,0.11
11.392,-0.33,-9.87,0.01
11.408,-0.23,-9.83,0.02
11.424,-0.28,-9.83,0.09
11.44,-0.23,-9.76,-0.02
11.456,-0.24,-9.88,0.03
11.472,-0.33,-9.79,-0.01
11.488,-0.22,-9.8,0.04
11.504,-0.31,-9.86,-0.12
11.52,-0.24,-9.84,0.01
11.536,-0.27,-9.84,-0.03
11.552,-0.23,-9.77,-0.01
11.568,-0.26,-9.82,-0.0
11.584,-0.3,-9.83,-0.06
11.6,-0.27,-9.78,-0.03
11.616,-0.18,-9.8,-0.05
11.632,-0.28,-9.78,-0.05
11.648,-0.3,-9.86,0.06
11.664,-0.26,-9.81,-0.02
11.68,-0.23,-9.87,0.02
11.696,-0.12,-9.7,-0.08
11.712,-0.29,-9.76,-0.07
11.728,-0.27,-9.74,-0.03
11.744,-0.2,-9.91,-0.05
11.76,-0.19,-9.88,0.07
11.776,-0.26,-9.78,-0.01
11.792,-0.2,-9.78,0.08
11.808,-0.19,-9.86,-0.03
11.824,-0.23,-9.84,0.08
11.84,-0.23,-9.88,-0.08
11.856,-0.16,-9.79,-0.11
11.872,-0.22,-9.78,0.02
11.888,-0.23,-9.81,0.01
11.904,-0.21,-9.81,0.12
11.92,-0.18,-10.04,0.07
11.936,-0.14,-9.82,0.15
11.952,-0.15,-9.96,-0.0
11.968,-0.14,-9.78,-0.04
11.984,-0.06,-9.83,-0.09
12.0,-0.07,-9.83,0.01
12.016,-0.18,-9.9,0.01
12.032,-0.17,-9.84,-0.1
12.048,-0.13,-9.79,0.09
12.064,-0.26,-9.86,0.12
12.08,-0.19,-9.88,-0.1
12.096,-0.12,-9.79,-0.01
12.112,-0.21,-9.89,0.03
12.128,-0.29,-9.86,0.01
12.144,-0.31,-9.77,-0.0
12.16,-0.29,-9.82,0.02
12.176,-0.23,-9.89,0.05
12.192,-0.27,-9.86,0.02
12.208,-0.26,-9.8,0.13
12.224,-0.27,-9.83,0.11
12.24,-0.25,-9.85,0.07
12.256,-0.2,-9.86,0.23
12.272,-0.29,-9.84,0.11
12.288,-0.28,-9.81,-0.04
12.304,-0.26,-9.91,0.03
12.32,-0.23,-9.74,0.14
12.336,-0.2,-9.77,0.06
12.352,-0.28,-9.81,0.08
12.368,-0.3,-9.79,0.09
12.384,-0.25,-9.92,0.07
12.4,-0.25,-9.83,0.22
12.416,-0.27,-9.8,0.1
12.432,-0.25,-9.83,0.0
12.448,-0.23,-9.77,0.04
12.464,-0.26,-9.83,0.08
12.48,-0.27,-9.79,0.11
12.496,-0.27,-9.81,-0.03
12.512,-0.22,-9.79,0.03
12.528,-0.24,-9.79,0.04
12.544,-0.17,-9.82,0.06
12.56,-0.2,-9.84,0.14
12.576,-0.21,-9.83,0.07
12.592,-0.23,-9.75,-0.0
12.608,-0.23,-9.88,0.12
12.624,-0.17,-9.88,0.0
12.64,-0.17,-9.89,0.16
12.656,-0.15,-9.85,0.09
12.672,-0.18,-9.8,0.02
12.688,-0.14,-9.87,-0.04
12.704,-0.24,-9.77,0.06
12.72,-0.17,-9.79,0.03
12.736,-0.1,-9.74,0.02
12.752,-0.12,-9.85,0.13
12.768,-0.09,-9.81,-0.01
12.784,-0.1,-9.82,0.07
12.8,-0.14,-9.78,0.1
12.816,-0.18,-9.92,-0.07
12.832,-0.16,-9.85,-0.04
12.848,-0.18,-9.86,-0.08
12.864,-0.11,-9.83,-0.09
12.88,-0.16,-9.79,0.11
12.896,-0.23,-9.86,-0.06
12.912,-0.13,-9.86,-0.01
12.928,-0.13,-9.82,0.04
12.944,-0.18,-9.8,-0.06
12.96,-0.2,-9.87,0.2
12.976,-0.14,-9.7,0.0
12.992,-0.09,-9.9,-0.17
13.008,-0.31,-9.82,0.03
13.024,-0.17,-9.89,0.05
13.04,-0.21,-9.9,0.09
13.056,-0.22,-9.78,-0.1
13.072,-0.25,-9.83,-0.02
13.088,-0.27,-9.86,-0.04
13.104,-0.19,-9.82,0.03
13.12,-0.22,-9.7,0.04
13.136,-0.21,-9.79,-0.02
13.152,-0.25,-9.77,0.03
13.168,-0.19,-9.75,0.06
13.184,-0.32,-9.75,0.06
13.2,-0.17,-9.87,-0.14
13.216,-0.3,-9.81,-0.03
13.232,-0.19,-9.91,0.15
13.248,-0.22,-9.81,0.02
13.264,-0.19,-9.84,0.04
13.28,-0.15,-9.84,0.04
13.296,-0.23,-9.8,0.08
13.312,-0.26,-9.88,0.05
13.328,-0.23,-9.85,-0.08
13.344,-0.22,-9.82,0.06
13.36,-0.23,-9.84,0.12
13.376,-0.26,-9.88,0.07
13.392,-0.21,-9.89,0.02
13.408,-0.2,-9.85,0.05
13.424,-0.25,-9.84,0.01
13.44,-0.15,-9.81,0.18
13.456,-0.15,-9.89,0.08
13.472,-0.19,-9.8,0.03
13.488,-0.21,-9.95,-0.01
13.504,-0.15,-9.86,0.14
13.52,-0.15,-9.88,0.07
13.536,-0.2,-9.89,-0.04
13.552,-0.19,-9.77,0.13
13.568,-0.16,-9.93,0.01
13.584,-0.12,-9.79,0.19
13.6,-0.18,-9.79,0.01
13.616,-0.1,-9.86,0.15
13.632,-0.09,-9.87,0.09
13.648,-0.14,-9.78,0.2
13.664,-0.15,-9.79,0.02
13.68,-0.1,-9.77,-0.02
13.696,-0.12,-9.78,0.09
13.712,-0.23,-9.79,0.09
13.728,-0.17,-9.95,0.1
13.744,-0.19,-9.77,0.15
13.76,-0.16,-9.88,-0.03
13.776,-0.16,-9.83,0.07
13.792,-0.28,-9.88,0.14
13.808,-0.1,-9.82,-0.05
13.824,-0.32,-9.8,0.21
13.84,-0.24,-9.84,0.04
13.856,-0.09,-9.75,0.1
13.872,-0.18,-9.76,-0.08
13.888,-0.12,-9.81,-0.03
13.904,-0.22,-9.87,0.14
13.92,-0.23,-9.75,-0.0
13.936,-0.18,-9.84,0.14
13.952,-0.28,-9.85,0.0
13.968,-0.24,-9.81,0.08
13.984,-0.19,-9.94,0.04
14.0,-0.25,-9.81,0.01
14.016,-0.19,-9.8,0.01
14.032,-0.27,-9.84,0.01
14.048,-0.2,-9.85,-0.01
14.064,-0.18,-9.82,0.02
14.08,-0.31,-9.81,0.05
14.096,-0.25,-9.78,-0.01
14.112,-0.28,-9.84,-0.02
14.128,-0.23,-9.89,-0.02
14.144,-0.29,-9.8,0.18
14.16,-0.18,-9.74,0.0
14.176,-0.21,-9.79,-0.14
14.192,-0.22,-9.84,0.07
14.208,-0.2,-9.88,0.1
14.224,-0.17,-9.84,0.09
14.24,-0.29,-9.8,0.07
14.256,-0.2,-9.84,0.15
14.272,-0.23,-9.82,0.09
14.288,-0.16,-9.81,0.01
14.304,-0.15,-9.83,-0.02
14.32,-0.07,-9.78,0.07
14.336,-0.16,-9.85,0.08
14.352,-0.23,-9.79,-0.07
14.368,-0.11,-9.81,-0.06
14.384,-0.18,-9.81,0.05
14.4,-0.16,-9.85,0.04
14.416,-0.09,-9.87,0.1
14.432,-0.21,-9.98,0.03
14.448,-0.22,-9.81,0.12
14.464,-0.15,-9.74,0.01
14.48,-0.14,-9.87,0.03
14.496,-0.19,-9.84,0.03
14.512,-0.23,-9.89,0.03
14.528,-0.18,-9.81,0.01
14.544,-0.07,-9.75,0.06
14.56,-0.17,-9.79,0.06
14.576,-0.16,-9.8,0.05
14.592,-0.2,-9.74,0.02
14.608,-0.11,-9.82,-0.03
14.624,-0.21,-9.82,0.05
14.64,-0.21,-9.75,0.02
14.656,-0.12,-9.82,0.02
14.672,-0.27,-9.76,0.2
14.688,-0.18,-9.73,0.08
14.704,-0.18,-9.81,0.11
14.72,-0.14,-9.86,0.02
14.736,-0.25,-9.85,-0.01
14.752,-0.27,-9.82,0.02
14.768,-0.24,-9.77,0.08
14.784,-0.17,-9.9,-0.03
14.8,-0.18,-9.8,0.05
14.816,-0.27,-9.71,0.09
14.832,-0.23,-9.85,0.22
14.848,-0.28,-9.82,0.01
14.864,-0.29,-9.94,0.15
14.88,-0.1,-9.85,0.12
14.896,-0.24,-9.86,0.12
14.912,-0.18,-9.8,0.16
14.928,-0.18,-9.86,0.14
14.944,-0.13,-9.82,0.02
14.96,-0.16,-9.82,0.1
14.976,-0.1,-9.84,0.16
14.992,-0.25,-9.8,0.03
15.008,-0.25,-9.87,0.02
15.024,-0.28,-9.75,0.02
15.04,-0.25,-9.92,0.15
15.056,-0.24,-9.81,-0.04
15.072,-0.3,-9.82,-0.03
15.088,-0.29,-9.67,0.09
15.104,-0.18,-9.81,0.0
15.12,-0.2,-9.77,0.01
15.136,-0.13,-9.92,0.02
15.152,-0.25,-9.85,0.16
15.168,-0.15,-9.81,-0.02
15.184,-0.21,-9.82,0.07
15.2,-0.12,-9.8,-0.04
15.216,-0.25,-9.8,-0.1
15.232,-0.04,-9.87,-0.04
15.248,-0.14,-9.81,0.09
15.264,-0.02,-9.79,0.02
15.28,-0.09,-9.77,0.07
15.296,-0.06,-9.79,0.11
15.312,-0.07,-9.76,-0.04
15.328,-0.11,-9.76,0.01
15.344,-0.13,-9.88,-0.05
15.36,-0.18,-9.71,-0.07
15.376,-0.11,-9.8,0.04
15.392,-0.23,-9.84,0.06
15.408,-0.22,-9.89,-0.1
15.424,-0.16,-9.81,0.02
15.44,-0.19,-9.87,-0.07
15.456,-0.21,-9.86,0.06
15.472,-0.2,-9.88,0.04
15.488,-0.15,-9.82,0.08
15.504,-0.23,-9.74,0.11
15.52,-0.12,-9.87,-0.01
15.536,-0.2,-9.76,0.07
15.552,-0.16,-9.75,-0.07
15.568,-0.12,-9.84,-0.02
15.584,-0.2,-9.8,0.09
15.6,-0.14,-9.73,0.01
15.616,-0.17,-9.85,0.02
15.632,-0.22,-9.88,0.09
15.648,-0.17,-9.9,-0.02
15.664,-0.17,-9.77,0.1
15.68,-0.18,-9.79,0.11
15.696,-0.11,-9.82,-0.1
15.712,-0.15,-9.87,-0.08
15.728,-0.21,-9.84,0.06
15.744,-0.27,-9.89,0.0
15.76,-0.27,-9.86,0.15
15.776,-0.24,-9.85,-0.11
15.792,-0.28,-9.89,0.01
15.808,-0.25,-9.81,0.02
15.824,-0.23,-9.8,-0.07
15.84,-0.23,-9.76,-0.03
15.856,-0.16,-9.81,0.02
15.872,-0.19,-9.69,0.04
15.888,-0.19,-9.88,-0.02
15.904,-0.09,-9.79,0.11
15.92,-0.09,-9.84,0.06
15.936,-0.2,-9.83,0.01
15.952,-0.15,-9.87,0.02
15.968,-0.19,-9.88,0.16
15.984,-0.24,-9.85,0.08
16.0,-0.14,-9.83,0.01
16.016,-0.17,-9.89,0.05
16.032,-0.08,-9.84,0.12
16.048,-0.16,-9.76,-0.05
16.064,-0.13,-9.87,-0.07
16.08,-0.15,-9.8,0.07
16.096,-0.17,-9.89,-0.05
16.112,-0.15,-9.88,0.1
16.128,-0.16,-9.87,0.05
16.144,-0.16,-9.77,0.06
16.16,-0.13,-9.84,0.05
16.176,-0.12,-9.85,0.02
16.192,-0.14,-9.79,-0.07
16.208,-0.19,-9.9,0.03
16.224,-0.12,-9.83,0.06
16.24,-0.14,-9.86,-0.04
16.256,-0.13,-9.85,-0.04
16.272,-0.04,-9.83,0.07
16.288,-0.15,-9.9,-0.04
16.304,-0.17,-9.79,0.04
16.32,-0.12,-9.88,-0.09
16.336,-0.12,-9.78,-0.02
16.352,-0.16,-9.87,0.07
16.368,-0.18,-9.82,-0.06
16.384,-0.14,-9.78,-0.04
16.4,-0.2,-9.83,-0.01
16.416,-0.22,-9.89,-0.06
16.432,-0.15,-9.82,0.0
16.448,-0.3,-9.86,-0.06
16.464,-0.25,-9.84,-0.03
16.48,-0.21,-9.8,-0.0
16.496,-0.23,-9.88,-0.08
16.512,-0.27,-9.74,0.03
16.528,-0.22,-9.78,-0.1
16.544,-0.15,-9.83,-0.05
16.56,-0.27,-9.64,0.1
16.576,-0.37,-9.82,0.12
16.592,-0.18,-9.81,-0.01
16.608,-0.19,-9.83,0.04
16.624,-0.23,-9.8,0.12
16.64,-0.27,-9.78,-0.15
16.656,-0.22,-9.76,-0.01
16.672,-0.22,-9.76,0.02
16.688,-0.14,-9.81,-0.04
16.704,-0.22,-9.79,0.08
16.72,-0.21,-9.8,0.1
16.736,-0.2,-9.86,-0.05
16.752,-0.18,-9.76,-0.09
16.768,-0.18,-9.81,-0.1
16.784,-0.16,-9.86,-0.06
16.8,-0.16,-9.84,0.05
16.816,-0.12,-9.85,-0.07
16.832,-0.1,-9.87,0.08
16.848,-0.12,-9.9,0.11
16.864,-0.17,-9.92,-0.03
16.88,-0.11,-9.82,0.08
16.896,-0.14,-9.83,-0.02
16.912,-0.01,-9.92,-0.07
16.928,-0.18,-9.85,-0.04
16.944,-0.04,-9.88,0.02
16.96,-0.06,-9.87,-0.08
16.976,-0.12,-9.86,0.07
16.992,-0.05,-9.8,0.09
17.008,-0.05,-9.77,-0.01
17.024,-0.12,-9.78,-0.0
17.04,-0.02,-9.91,0.0
17.056,-0.1,-9.82,0.07
17.072,-0.25,-9.88,0.04
17.088,-0.22,-9.88,0.05
17.104,-0.14,-9.79,-0.05
17.12,-0.17,-9.79,0.1
17.136,-0.13,-9.86,0.1
17.152,-0.17,-9.82,-0.05
17.168,-0.19,-9.72,0.14
17.184,-0.12,-9.81,0.02
17.2,-0.12,-9.87,-0.11
17.216,-0.14,-9.89,0.11
17.232,-0.16,-9.83,0.05
17.248,-0.1,-9.82,0.11
17.264,-0.15,-9.85,0.13
17.28,-0.16,-9.79,0.03
17.296,-0.01,-9.8,-0.07
17.312,-0.31,-9.84,0.1
17.328,-0.27,-9.8,-0.02
17.344,-0.33,-9.84,-0.01
17.36,-0.2,-9.76,-0.07
17.376,-0.32,-9.8,0.1
17.392,-0.23,-9.82,-0.02
17.408,-0.14,-9.93,0.14
17.424,-0.16,-9.78,0.07
17.44,-0.24,-9.82,0.1
17.456,-0.24,-9.78,-0.0
17.472,-0.2,-9.82,0.02
17.488,-0.14,-9.77,0.09
17.504,-0.17,-9.82,-0.03
17.52,-0.13,-9.82,-0.04
17.536,-0.1,-9.91,-0.05
17.552,-0.19,-9.81,0.1
17.568,-0.11,-9.78,-0.13
17.584,-0.09,-9.78,0.03
17.6,-0.15,-9.75,-0.04
17.616,-0.06,-9.87,-0.09
17.632,-0.13,-9.85,-0.08
17.648,-0.11,-9.81,0.02
17.664,-0.13,-9.84,-0.07
17.68,-0.11,-9.87,-0.03
17.696,-0.17,-9.9,0.07
17.712,-0.19,-9.87,-0.09
17.728,-0.15,-9.78,-0.06
17.744,-0.17,-9.76,-0.14
17.76,-0.16,-9.84,-0.04
17.776,-0.11,-9.8,0.05
17.792,-0.08,-9.93,0.1
17.808,-0.1,-9.8,-0.04
17.824,-0.18,-9.8,-0.05
17.84,-0.11,-9.86,-0.11
17.856,-0.05,-9.79,-0.14
17.872,-0.09,-9.78,0.0
17.888,-0.1,-9.74,0.01
17.904,-0.12,-9.8,-0.06
17.92,-0.06,-9.86,-0.05
17.936,-0.14,-9.76,0.04
17.952,-0.15,-9.73,-0.02
17.968,-0.1,-9.97,-0.05
17.984,-0.07,-9.77,-0.03
18.0,-0.22,-9.86,-0.03
18.016,-0.14,-9.8,-0.02
18.032,-0.11,-9.76,-0.06
18.048,-0.23,-9.83,0.04
18.064,-0.22,-9.86,0.02
18.08,-0.17,-9.85,-0.01
18.096,-0.21,-9.82,-0.16
18.112,-0.26,-9.78,0.06
18.128,-0.26,-9.78,-0.01
18.144,-0.22,-9.8,0.05
18.16,-0.19,-9.77,0.06
18.176,-0.18,-9.91,0.02
18.192,-0.21,-9.88,0.01
18.208,-0.25,-9.85,-0.0
18.224,-0.22,-9.83,0.08
18.24,-0.14,-9.78,-0.08
18.256,-0.18,-9.86,0.16
18.272,-0.24,-9.75,0.02
18.288,-0.16,-9.8,0.05
18.304,-0.22,-9.92,0.0
18.32,-0.17,-9.82,-0.05
18.336,-0.19,-9.84,0.01
18.352,-0.22,-9.8,0.01
18.368,-0.14,-9.86,0.01
18.384,-0.16,-9.75,0.07
18.4,-0.1,-9.84,-0.01
18.416,-0.19,-9.86,-0.04
18.432,-0.19,-9.81,0.04
18.448,-0.11,-9.88,-0.11
18.464,-0.14,-9.79,-0.02
18.48,-0.15,-9.81,0.0
18.496,-0.1,-9.78,-0.0
18.512,-0.17,-9.77,-0.02
18.528,-0.06,-9.79,0.04
18.544,0.0,-9.87,-0.02
18.56,-0.13,-9.82,0.05
18.576,-0.16,-9.75,0.07
18.592,-0.16,-9.72,-0.09
18.608,-0.06,-9.71,-0.09
18.624,-0.15,-9.85,-0.09
18.64,-0.03,-9.77,-0.02
18.656,-0.12,-9.8,-0.13
18.672,-0.06,-9.72,0.02
18.688,-0.16,-9.82,-0.04
18.704,-0.12,-9.94,-0.1
18.72,-0.09,-9.76,-0.12
18.736,-0.12,-9.77,-0.12
18.752,-0.1,-9.94,0.02
18.768,-0.17,-9.85,-0.03
18.784,-0.05,-9.77,0.03
18.8,-0.22,-9.78,0.06
18.816,-0.07,-9.88,-0.09
18.832,-0.16,-9.81,-0.06
18.848,-0.07,-9.84,0.02
18.864,-0.03,-9.89,-0.09
18.88,-0.17,-9.84,-0.01
18.896,-0.16,-9.78,-0.09
18.912,-0.15,-9.88,-0.04
18.928,-0.23,-9.82,-0.09
18.944,-0.24,-9.91,-0.13
18.96,-0.12,-9.84,-0.03
18.976,-0.22,-9.8,0.01
18.992,-0.18,-9.82,-0.11
19.008,-0.17,-9.86,-0.01
19.024,-0.23,-9.87,0.01
19.04,-0.21,-9.82,0.02
19.056,-0.22,-9.86,0.05
19.072,-0.23,-9.8,-0.08
19.088,-0.24,-9.77,-0.01
19.104,-0.18,-9.81,-0.14
19.12,-0.16,-9.76,-0.06
19.136,-0.16,-9.86,-0.06
19.152,-0.21,-9.87,-0.13
19.168,-0.22,-9.89,-0.09
19.184,-0.2,-9.92,-0.03
19.2,-0.13,-9.84,0.03
19.216,-0.15,-9.74,-0.06
19.232,-0.16,-9.82,-0.1
19.248,-0.13,-9.85,-0.15
19.264,-0.1,-9.87,-0.03
19.28,-0.12,-9.79,-0.17
19.296,-0.16,-9.84,-0.15
19.312,-0.15,-9.86,-0.02
19.328,-0.12,-9.86,-0.11
19.344,-0.07,-9.85,-0.03
19.36,-0.13,-9.89,-0.05
19.376,-0.18,-9.75,-0.07
19.392,-0.21,-9.84,-0.08
19.408,-0.16,-9.82,0.04
19.424,-0.09,-9.78,-0.04
19.44,-0.24,-9.82,0.0
19.456,-0.06,-9.85,0.04
19.472,-0.1,-9.85,0.07
19.488,-0.06,-9.8,0.07
19.504,-0.12,-9.79,-0.03
19.52,-0.11,-9.8,-0.01
19.536,-0.09,-9.84,-0.0
19.552,-0.15,-9.77,0.09
19.568,-0.04,-9.85,0.08
19.584,-0.12,-9.76,-0.1
19.6,-0.04,-9.77,-0.11
19.616,-0.04,-9.9,-0.05
19.632,-0.18,-9.82,-0.07
19.648,-0.15,-9.76,-0.08
19.664,-0.17,-9.77,-0.21
19.68,-0.14,-9.86,0.02
19.696,-0.21,-9.82,-0.06
19.712,-0.21,-9.81,-0.16
19.728,-0.19,-9.84,0.03
19.744,-0.23,-9.8,-0.17
19.76,-0.2,-9.81,-0.07
19.776,-0.13,-9.75,0.05
19.792,-0.2,-9.78,0.04
19.808,-0.23,-9.84,-0.06
19.824,-0.09,-9.75,-0.08
19.84,-0.18,-9.7,-0.01
19.856,-0.16,-9.79,0.01
19.872,-0.14,-9.78,0.02
19.888,-0.16,-9.81,0.06
19.904,-0.22,-9.82,-0.06
19.92,-0.23,-9.8,-0.02
19.936,-0.14,-9.86,-0.13
19.952,-0.08,-9.8,0.01
19.968,-0.24,-9.89,-0.09
19.984,-0.09,-9.84,-0.06
20.0,-0.21,-9.76,-0.03
20.016,-0.13,-9.74,0.01
20.032,-0.2,-9.84,0.09
20.048,-0.19,-9.81,-0.1
20.064,-0.23,-9.88,-0.17
20.08,-0.2,-9.84,-0.05
20.096,-0.12,-9.82,-0.11
20.112,-0.11,-9.81,0.01
20.128,-0.15,-9.83,0.02
20.144,-0.16,-9.79,-0.13
20.16,-0.18,-9.84,-0.1
20.176,-0.08,-9.88,-0.1
20.192,-0.08,-9.82,-0.27
20.208,-0.07,-9.79,-0.03
20.224,-0.1,-9.85,-0.02
20.24,-0.02,-9.81,0.08
20.256,-0.14,-9.77,-0.15
20.272,-0.14,-9.87,-0.02
20.288,-0.18,-9.85,-0.06
20.304,-0.1,-9.81,-0.22
20.32,-0.1,-9.93,0.02
20.336,-0.13,-9.81,0.02
20.352,-0.12,-9.84,-0.16
20.368,-0.04,-9.85,-0.09
20.384,-0.05,-9.75,-0.11
20.4,-0.09,-9.86,-0.06
20.416,-0.2,-9.79,-0.14
20.432,-0.15,-9.86,-0.27
20.448,-0.15,-9.77,-0.13
20.464,-0.11,-9.85,-0.04
20.48,-0.11,-9.76,-0.12
20.496,-0.13,-9.83,-0.14
20.512,-0.15,-9.87,0.06
20.528,-0.21,-9.81,-0.13
20.544,-0.15,-9.84,-0.14
20.56,-0.1,-9.79,-0.12
20.576,-0.14,-9.75,0.1
20.592,-0.08,-9.73,0.02
20.608,-0.16,-9.81,-0.02
20.624,-0.19,-9.79,-0.08
20.64,-0.2,-9.77,-0.1
20.656,-0.25,-9.84,0.12
20.672,-0.16,-9.76,0.09
20.688,-0.26,-9.88,0.01
20.704,-0.11,-9.74,0.08
20.72,-0.23,-9.82,-0.05
20.736,-0.22,-9.84,-0.07
20.752,-0.22,-9.86,-0.09
20.768,-0.16,-9.85,-0.0
20.784,-0.13,-9.92,-0.04
20.8,-0.14,-9.87,0.19
20.816,-0.08,-9.85,-0.01
20.832,-0.2,-9.82,0.02
20.848,-0.1,-9.89,-0.08
20.864,-0.08,-9.85,0.05
20.88,-0.16,-9.75,0.04
20.896,-0.11,-9.79,0.05
20.912,-0.09,-9.85,-0.07
20.928,-0.25,-9.85,0.0
20.944,-0.13,-9.82,-0.06
20.96,-0.12,-9.79,-0.04
20.976,-0.16,-9.73,0.13
20.992,-0.2,-9.75,0.01
21.008,-0.18,-9.85,-0.04
21.024,-0.11,-9.84,-0.04
21.04,-0.12,-9.72,0.01
21.056,-0.1,-9.8,0.03
21.072,-0.13,-9.81,0.02
21.088,-0.12,-9.92,-0.14
21.104,-0.11,-9.88,-0.13
21.12,-0.05,-9.84,0.15
21.136,-0.09,-9.88,-0.21
21.152,-0.02,-9.81,0.09
21.168,-0.18,-9.86,-0.04
21.184,-0.09,-9.83,0.05
21.2,0.05,-9.82,-0.09
21.216,-0.11,-9.84,0.08
21.232,-0.16,-9.86,-0.03
21.248,-0.12,-9.87,-0.05
21.264,-0.12,-9.81,-0.21
21.28,-0.1,-9.77,-0.05
21.296,-0.09,-9.85,-0.11
21.312,-0.2,-9.78,-0.07
21.328,-0.17,-9.79,-0.03
21.344,-0.09,-9.78,-0.12
21.36,-0.17,-9.84,-0.09
21.376,-0.25,-9.8,-0.16
21.392,-0.12,-9.79,-0.11
21.408,-0.21,-9.73,-0.08
21.424,-0.14,-9.83,-0.19
21.44,-0.15,-9.77,-0.24
21.456,-0.19,-9.75,-0.13
21.472,-0.2,-9.83,-0.03
21.488,-0.2,-9.87,-0.11
21.504,-0.17,-9.84,-0.1
21.52,-0.26,-9.79,-0.04
21.536,-0.18,-9.84,-0.08
21.552,-0.18,-9.88,-0.15
21.568,-0.16,-9.85,-0.05
21.584,-0.16,-9.9,-0.09
21.6,-0.19,-9.77,-0.02
21.616,-0.13,-9.85,-0.07
21.632,-0.11,-9.87,-0.07
21.648,-0.17,-9.84,-0.06
21.664,-0.17,-9.8,-0.03
21.68,-0.22,-9.77,-0.02
21.696,-0.16,-9.72,0.01
21.712,-0.16,-9.8,-0.03
21.728,-0.08,-9.89,-0.12
21.744,-0.19,-9.88,-0.04
21.76,-0.15,-9.85,0.01
21.776,-0.16,-9.8,-0.01
21.792,-0.17,-9.84,-0.01
21.808,-0.12,-9.77,-0.15
21.824,-0.11,-9.85,-0.06
21.84,0.0,-10.0,-0.17
21.856,-0.22,-9.87,0.15
21.872,0.01,-9.8,0.02
21.888,-0.1,-9.76,0.06
21.904,-0.09,-9.85,0.03
21.92,-0.14,-9.76,-0.12
21.936,-0.12,-9.83,0.02
21.952,-0.15,-9.91,-0.02
21.968,-0.04,-9.83,-0.09
21.984,-0.05,-9.86,-0.06
22.0,-0.1,-9.84,0.12
22.016,-0.1,-9.83,-0.03
22.032,-0.13,-9.89,-0.0
22.048,-0.12,-9.75,0.06
22.064,-0.12,-9.83,0.04
22.08,-0.04,-9.88,0.03
22.096,-0.1,-9.82,-0.0
22.112,-0.07,-9.76,0.14
22.128,-0.09,-9.86,0.0
22.144,-0.13,-9.78,-0.05
22.16,-0.1,-9.78,-0.04
22.176,-0.13,-9.84,0.02
22.192,-0.17,-9.84,0.03
22.208,-0.11,-9.77,-0.04
22.224,-0.1,-9.8,0.0
22.24,-0.13,-9.79,-0.03
22.256,-0.22,-9.88,-0.13
22.272,-0.06,-9.79,-0.12
22.288,-0.22,-9.72,0.14
22.304,-0.23,-9.84,0.07
22.32,-0.21,-9.85,-0.06
22.336,-0.22,-9.91,-0.06
22.352,-0.15,-9.8,0.02
22.368,-0.11,-9.88,0.05
22.384,-0.19,-9.79,-0.01
22.4,-0.2,-9.81,-0.04
22.416,-0.13,-9.87,-0.17
22.432,-0.2,-9.81,-0.05
22.448,-0.16,-9.84,0.07
22.464,-0.16,-9.85,-0.03
22.48,-0.21,-9.8,-0.04
22.496,-0.18,-9.82,0.08
22.512,-0.06,-9.8,0.05
22.528,-0.23,-9.79,-0.17
22.544,-0.11,-9.92,-0.04
22.56,-0.07,-9.79,-0.07
22.576,-0.09,-9.85,0.02
22.592,-0.17,-9.79,-0.16
22.608,-0.08,-9.78,-0.02
22.624,-0.08,-9.86,-0.16
22.64,-0.14,-9.73,-0.05
22.656,-0.15,-9.89,-0.02
22.672,-0.1,-9.79,-0.07
22.688,-0.15,-9.85,-0.04
22.704,-0.16,-9.77,0.02
22.72,-0.09,-9.88,-0.04
22.736,-0.1,-9.82,-0.13
22.752,-0.15,-9.82,-0.13
22.768,-0.13,-9.81,-0.07
22.784,-0.07,-9.85,0.01
22.8,-0.16,-9.87,-0.06
22.816,-0.09,-9.87,-0.09
22.832,-0.09,-9.87,-0.04
22.848,-0.09,-9.86,-0.0
22.864,0.0,-9.82,-0.07
22.88,-0.04,-9.88,-0.01
22.896,-0.08,-9.93,0.05
22.912,-0.12,-9.92,0.06
22.928,-0.08,-9.84,0.01
22.944,-0.06,-9.81,0.02
22.96,-0.07,-9.9,-0.11
22.976,-0.1,-9.87,0.02
22.992,-0.19,-9.87,0.06
23.008,-0.11,-9.77,-0.04
23.024,-0.08,-9.86,0.05
23.04,-0.07,-9.78,0.09
23.056,-0.1,-9.86,-0.13
23.072,-0.14,-9.84,0.1
23.088,-0.16,-9.83,0.03
23.104,-0.15,-9.92,0.04
23.12,-0.05,-9.82,-0.01
23.136,-0.18,-9.83,0.07
23.152,-0.17,-9.82,0.01
23.168,-0.18,-9.85,-0.0
23.184,-0.19,-9.88,0.06
23.2,-0.17,-9.9,-0.12
23.216,-0.15,-9.83,0.01
23.232,-0.22,-9.8,-0.09
23.248,-0.17,-9.83,-0.11
23.264,-0.15,-9.86,0.1
23.28,-0.23,-9.9,-0.05
23.296,-0.16,-9.8,0.1
23.312,-0.16,-9.86,0.04
23.328,-0.12,-9.86,-0.06
23.344,-0.17,-9.85,-0.08
23.36,-0.19,-9.84,0.11
23.376,-0.18,-9.78,0.07
23.392,-0.13,-9.83,0.06
23.408,-0.11,-9.79,0.07
23.424,-0.15,-9.84,0.07
23.44,-0.16,-9.78,0.07
23.456,-0.12,-9.89,0.03
23.472,-0.2,-9.82,-0.04
23.488,-0.15,-9.78,-0.06
23.504,-0.07,-9.8,0.1
23.52,-0.0,-9.85,0.03
23.536,-0.05,-9.86,0.05
23.552,-0.03,-9.78,0.01
23.568,0.02,-9.91,0.02
23.584,-0.04,-9.86,0.04
23.6,-0.01,-9.68,-0.04
23.616,-0.08,-9.79,0.03
23.632,-0.06,-9.82,-0.09
23.648,-0.08,-9.79,-0.13
23.664,-0.1,-9.81,-0.1
23.68,-0.15,-9.83,0.04
23.696,-0.01,-9.94,-0.0
23.712,0.02,-9.8,-0.04
23.728,-0.11,-9.81,-0.09
23.744,-0.2,-10.0,0.05
23.76,-0.13,-9.77,-0.18
23.776,-0.09,-9.84,-0.01
23.792,-0.02,-9.84,0.04
23.808,-0.09,-9.83,0.06
23.824,-0.09,-9.82,-0.03
23.84,-0.04,-9.79,-0.01
23.856,-0.13,-9.83,-0.05
23.872,-0.1,-9.89,-0.03
23.888,-0.11,-9.72,-0.03
23.904,-0.04,-9.73,-0.04
23.92,-0.11,-9.83,-0.1
23.936,-0.11,-9.84,-0.09
23.952,-0.18,-9.82,-0.08
23.968,-0.18,-9.79,-0.09
23.984,-0.2,-9.8,0.07
24.0,-0.22,-9.76,0.07
24.016,-0.15,-9.95,-0.11
24.032,-0.15,-9.87,-0.12
24.048,-0.26,-9.8,0.06
24.064,-0.11,-9.88,0.01
24.08,-0.24,-9.94,0.09
24.096,-0.14,-9.86,-0.0
24.112,-0.16,-9.79,-0.06
24.128,-0.12,-9.75,-0.0
24.144,-0.18,-9.78,0.12
24.16,-0.1,-9.86,-0.02
24.176,-0.11,-9.87,0.22
24.192,-0.11,-9.8,0.02
24.208,-0.13,-9.86,-0.09
24.224,-0.13,-9.84,0.04
24.24,-0.16,-9.79,0.07
24.256,-0.23,-9.79,-0.05
24.272,-0.17,-9.84,-0.04
24.288,-0.08,-9.84,0.01
24.304,-0.08,-9.81,0.01
24.32,-0.18,-9.79,0.05
24.336,-0.19,-9.87,0.0
24.352,-0.19,-9.86,0.01
24.368,-0.12,-9.88,0.01
24.384,-0.22,-9.89,0.04
24.4,-0.04,-9.8,-0.06
24.416,-0.13,-9.8,0.03
24.432,-0.12,-9.85,0.04
24.448,-0.08,-9.82,0.09
24.464,0.03,-9.78,0.05
24.48,-0.01,-9.75,-0.06
24.496,-0.05,-9.8,0.05
24.512,-0.02,-9.75,0.04
24.528,0.02,-9.93,0.04
24.544,-0.11,-9.81,0.09
24.56,-0.05,-9.77,0.02
24.576,-0.06,-9.79,-0.05
24.592,-0.06,-9.78,0.03
24.608,-0.09,-9.81,-0.01
24.624,-0.12,-9.88,0.02
24.64,-0.19,-9.83,-0.04
24.656,-0.13,-9.79,0.03
24.672,-0.11,-9.81,0.12
24.688,-0.17,-9.83,0.03
24.704,-0.1,-9.79,-0.03
24.72,-0.11,-9.83,0.05
24.736,-0.13,-9.78,-0.05
24.752,-0.18,-9.8,0.03
24.768,-0.18,-9.77,0.15
24.784,-0.09,-9.74,-0.02
24.8,-0.21,-9.81,-0.05
24.816,-0.13,-9.78,0.01
24.832,-0.15,-9.87,-0.07
24.848,-0.16,-9.85,0.01
24.864,-0.11,-9.88,0.03
24.88,-0.1,-9.77,-0.02
24.896,-0.23,-9.86,0.16
24.912,-0.25,-9.74,0.09
24.928,-0.13,-9.75,0.0
24.944,-0.14,-9.94,-0.08
24.96,-0.19,-9.89,-0.04
24.976,-0.29,-9.79,-0.19
24.992,-0.15,-9.9,-0.02
25.008,-0.14,-9.86,0.08
25.024,-0.2,-9.78,0.01
25.04,-0.08,-9.75,0.15
25.056,-0.15,-9.86,0.05
25.072,-0.23,-9.82,0.03
25.088,-0.06,-9.84,0.07
25.104,-0.22,-9.84,-0.04
25.12,-0.13,-9.8,-0.01
25.136,-0.12,-9.79,0.09
25.152,-0.12,-9.92,0.03
25.168,0.01,-9.9,-0.1
25.184,-0.11,-9.82,-0.02
25.2,0.01,-9.83,-0.06
25.216,-0.06,-9.86,-0.02
25.232,-0.2,-9.81,0.1
25.248,-0.12,-9.82,-0.04
25.264,-0.06,-9.78,0.08
25.28,-0.15,-9.83,0.08
25.296,-0.18,-9.82,-0.01
25.312,-0.03,-9.83,-0.11
25.328,-0.08,-9.79,0.01
25.344,-0.19,-9.8,-0.04
25.36,-0.17,-9.81,0.06
25.376,-0.01,-9.74,-0.05
25.392,-0.13,-9.8,0.09
25.408,-0.1,-9.85,0.09
25.424,-0.14,-9.91,0.04
25.44,-0.11,-9.81,0.22
25.456,-0.11,-9.83,0.11
25.472,-0.12,-9.74,0.02
25.488,-0.1,-9.89,0.11
25.504,-0.01,-9.79,0.03
25.52,-0.05,-9.87,0.12
25.536,-0.09,-9.81,0.05
25.552,-0.11,-9.83,0.15
25.568,0.09,-9.78,-0.01
25.584,-0.09,-9.75,-0.04
25.6,-0.09,-9.79,-0.13
25.616,-0.12,-9.87,0.01
25.632,-0.12,-9.86,-0.02
25.648,-0.09,-9.82,-0.0
25.664,-0.15,-9.87,0.04
25.68,-0.21,-9.79,0.11
25.696,-0.24,-9.8,0.07
25.712,-0.15,-9.75,0.04
25.728,-0.14,-9.78,0.06
25.744,-0.27,-9.77,0.05
25.76,-0.15,-9.82,0.11
25.776,-0.15,-9.89,0.13
25.792,-0.14,-9.83,0.23
25.808,-0.22,-9.79,0.1
25.824,-0.07,-9.84,0.21
25.84,-0.12,-9.81,0.02
25.856,-0.13,-9.76,0.05
25.872,-0.13,-9.77,0.09
25.888,-0.15,-9.78,0.08
25.904,-0.17,-9.85,-0.06
25.92,-0.03,-9.9,0.12
25.936,-0.06,-9.82,-0.02
25.952,-0.01,-9.74,-0.02
25.968,-0.05,-9.87,0.18
25.984,-0.15,-9.87,-0.13
26.0,-0.12,-9.85,-0.09
26.016,-0.1,-9.87,0.04
26.032,-0.03,-9.88,-0.12
26.048,-0.13,-9.93,0.08
26.064,-0.16,-9.82,0.09
26.08,-0.15,-9.75,0.21
26.096,-0.11,-9.81,-0.0
26.112,-0.1,-9.86,0.04
26.128,-0.07,-9.85,0.0
26.144,-0.12,-9.83,0.08
26.16,-0.11,-9.87,0.01
26.176,-0.02,-9.86,0.11
26.192,-0.02,-9.88,0.15
26.208,-0.09,-9.83,-0.08
26.224,-0.08,-9.81,0.05
26.24,-0.02,-9.72,0.07
26.256,-0.12,-9.88,-0.03
26.272,-0.14,-9.85,0.07
26.288,-0.06,-9.86,0.13
26.304,-0.13,-9.82,0.11
26.32,-0.14,-9.87,0.06
26.336,-0.2,-9.9,0.08
26.352,-0.1,-9.83,-0.02
26.368,-0.16,-9.81,-0.02
26.384,-0.1,-9.78,0.1
26.4,-0.24,-9.84,0.06
26.416,-0.17,-9.81,0.1
26.432,-0.09,-9.88,0.01
26.448,-0.15,-9.9,0.15
26.464,-0.19,-9.81,0.01
26.48,-0.09,-9.79,0.0
26.496,-0.15,-9.84,0.22
26.512,-0.15,-9.8,-0.03
26.528,-0.24,-9.75,-0.03
26.544,-0.1,-9.83,-0.06
26.56,-0.2,-9.82,0.0
26.576,-0.23,-9.87,0.09
26.592,-0.25,-9.87,0.05
26.608,-0.2,-9.84,0.07
26.624,-0.12,-9.88,-0.01
26.64,-0.22,-9.81,0.09
26.656,-0.3,-9.82,0.02
26.672,-0.28,-9.82,-0.01
26.688,-0.19,-9.78,0.05
26.704,-0.17,-9.85,0.02
26.72,-0.18,-9.83,0.19
26.736,-0.2,-9.88,0.07
26.752,-0.13,-9.76,-0.01
26.768,-0.18,-9.8,0.16
26.784,-0.12,-9.83,0.1
26.8,-0.11,-9.84,0.08
26.816,-0.14,-9.88,0.0
26.832,-0.04,-9.8,0.14
26.848,-0.14,-9.8,-0.04
26.864,-0.14,-9.84,-0.01
26.88,-0.02,-9.83,0.15
26.896,-0.02,-9.84,0.09
26.912,0.01,-9.82,0.16
26.928,-0.11,-9.82,0.06
26.944,-0.08,-9.86,0.1
26.96,-0.14,-9.86,0.18
26.976,-0.05,-9.8,0.1
26.992,-0.09,-9.78,-0.01
27.008,-0.19,-9.75,0.15
27.024,-0.06,-9.84,0.19
27.04,-0.11,-9.85,0.08
27.056,-0.12,-9.83,0.08
27.072,-0.11,-9.83,-0.03
27.088,-0.16,-9.78,0.13
27.104,-0.13,-9.78,-0.02
27.12,-0.08,-9.82,-0.06
27.136,-0.03,-9.73,0.08
27.152,-0.05,-9.85,0.1
27.168,-0.04,-9.84,-0.02
27.184,-0.03,-9.94,0.05
27.2,-0.09,-9.89,-0.05
27.216,-0.12,-9.85,0.12
27.232,-0.04,-9.9,-0.02
27.248,-0.18,-9.82,0.14
27.264,-0.11,-9.77,-0.08
27.28,-0.12,-9.85,0.02
27.296,-0.15,-9.75,0.03
27.312,-0.02,-9.87,0.01
27.328,-0.15,-9.82,0.09
27.344,-0.04,-9.86,-0.06
27.36,-0.12,-9.83,0.03
27.376,-0.12,-9.85,0.03
27.392,-0.23,-9.81,0.03
27.408,-0.21,-9.78,0.02
27.424,-0.11,-9.78,-0.01
27.44,-0.18,-9.8,0.03
27.456,-0.26,-9.75,0.04
27.472,-0.09,-9.81,-0.01
27.488,-0.19,-9.82,0.05
27.504,-0.16,-9.88,-0.12
27.52,-0.14,-9.8,0.2
27.536,-0.16,-9.81,0.03
27.552,-0.15,-9.77,-0.03
27.568,-0.05,-9.91,0.08
27.584,-0.21,-9.84,-0.04
27.6,-0.16,-9.8,0.07
27.616,-0.17,-9.82,0.1
27.632,-0.11,-9.86,0.08
27.648,-0.17,-9.78,-0.02
27.664,-0.15,-9.86,0.1
27.68,-0.22,-9.86,0.13
27.696,-0.11,-9.85,0.06
27.712,-0.1,-9.75,-0.06
27.728,-0.07,-9.86,0.04
27.744,-0.1,-9.87,-0.04
27.76,-0.12,-9.96,0.02
27.776,-0.12,-9.82,-0.05
27.792,-0.05,-9.87,0.01
27.808,-0.07,-9.85,-0.07
27.824,0.05,-9.78,-0.09
27.84,-0.15,-9.89,0.11
27.856,-0.07,-9.78,-0.05
27.872,-0.07,-9.83,0.1
27.888,-0.04,-9.82,0.08
27.904,-0.04,-9.84,0.14
27.92,-0.09,-9.88,0.05
27.936,-0.1,-9.85,0.17
27.952,-0.14,-9.86,0.13
27.968,-0.06,-9.83,0.08
27.984,-0.08,-9.84,0.06
28.0,-0.17,-9.82,0.13
28.016,-0.12,-9.76,0.12
28.032,-0.13,-9.87,-0.05
28.048,-0.09,-9.8,0.09
28.064,-0.11,-9.81,0.09
28.08,-0.12,-9.81,0.0
28.096,-0.13,-9.79,0.13
28.112,-0.14,-9.78,0.1
28.128,-0.09,-9.89,0.21
28.144,-0.19,-9.79,-0.01
28.16,-0.16,-9.9,0.06
28.176,-0.19,-9.81,0.03
28.192,-0.16,-9.77,0.1
28.208,-0.05,-9.86,0.15
28.224,-0.12,-9.83,-0.01
28.24,-0.14,-9.81,-0.01
28.256,-0.23,-9.78,0.06
28.272,-0.22,-9.69,0.08
28.288,-0.22,-9.83,0.05
28.304,-0.15,-9.79,0.09
28.32,-0.2,-9.8,0.0
